.thisTrialN,.stepSize,.intensity,time.onset,cue.color,isi_duration,.response,Target_Resp.rt,Trial.rewardType,Total_Earned,iti_base,iti_final,time.global,time.nominal,time.trial,Total_Task_Duration,participant,session,run,date,expName,frameRate,
0,6,10.0,8.023994100047275,Green,2.627516195207475,1,0.2821542999590747,1,1,1,1.377516195207475,14.04091400001198,14.012145290442955,6.015720099967439,,209,prac,prac,2025-01-27_14h09.32.971,MID1.0,60.95921766095772,
1,3,4.0,14.041024400037713,Blue,3.5801521722319354,0,,-1,1,1,2.3301521722319354,21.963957700005267,21.922449634906826,7.921943099994678,,209,prac,prac,2025-01-27_14h09.32.971,MID1.0,60.95921766095772,
2,3,7.0,21.96409850002965,Blue,3.6121064421102704,1,0.23235429998021573,-1,1,1,2.3621064421102704,29.957989100017585,29.896662519127368,7.992863600025885,,209,prac,prac,2025-01-27_14h09.32.971,MID1.0,60.95921766095772,
3,3,7.0,29.958126200013794,Blue,2.442545367216715,0,,-1,1,1,1.1925453672167148,35.59177950001322,35.5317532535608,5.6326923000160605,,209,prac,prac,2025-01-27_14h09.32.971,MID1.0,60.95921766095772,
4,3,10.0,35.59202450001612,Green,1.7719775063758374,0,,-1,1,1,0.5219775063758374,39.90712640003767,39.82570826631248,4.313991200004239,,209,prac,prac,2025-01-27_14h09.32.971,MID1.0,60.95921766095772,
5,3,13.0,39.90723660000367,Blue,2.5830376849993013,1,0.33479509997414425,-1,1,1,1.3330376849993013,45.85647680005059,45.74178363631109,5.94840930000646,,209,prac,prac,2025-01-27_14h09.32.971,MID1.0,60.95921766095772,
6,3,13.0,45.85657980001997,Green,2.771790723599968,1,0.3353991999756545,1,2,1,1.5217907235999681,52.17390330001945,52.03536508351103,6.31626839999808,,209,prac,prac,2025-01-27_14h09.32.971,MID1.0,60.95921766095772,
7,2,10.0,52.174018000019714,Green,1.504559019005056,0,,-1,2,1,0.25455901900505595,55.9410839000484,55.79448312152115,3.7661363999941386,,209,prac,prac,2025-01-27_14h09.32.971,MID1.0,60.95921766095772,
8,2,12.0,55.94119430001592,Green,2.4607486467633093,0,,-1,2,1,1.2107486467633093,61.60650420002639,61.46598041504776,5.664400100009516,,209,prac,prac,2025-01-27_14h09.32.971,MID1.0,60.95921766095772,
9,2,14.0,61.60661540000001,Green,2.865137749271001,1,0.3499599000206217,1,3,1,1.615137749271001,68.10661370004527,67.94625591358977,6.498961599951144,,209,prac,prac,2025-01-27_14h09.32.971,MID1.0,60.95921766095772,
10,2,14.0,68.10672250000061,Blue,1.6565945194445737,1,0.35045590001391247,-1,3,1,0.4065945194445737,72.19008230004692,72.0094449524789,4.0824615999590605,,209,prac,prac,2025-01-27_14h09.32.971,MID1.0,60.95921766095772,
11,2,12.0,72.19019200000912,Green,3.515787507208409,1,0.317742699990049,1,4,1,2.265787507208409,79.9728503000224,79.79101996689573,7.781801100005396,,209,prac,prac,2025-01-27_14h09.32.971,MID1.0,60.95921766095772,
12,2,12.0,79.97300240001641,Green,3.28477208740781,1,0.31615999998757616,1,5,1,2.03477208740781,87.32413550000638,87.11056414171136,7.350302999955602,,209,prac,prac,2025-01-27_14h09.32.971,MID1.0,60.95921766095772,
13,1,10.0,87.3242563000531,Green,1.6040150242782856,0,,-1,5,1,0.3540150242782856,91.30758030002471,91.06859419026793,3.982414099969901,,209,prac,prac,2025-01-27_14h09.32.971,MID1.0,60.95921766095772,
14,1,11.0,91.30770300002769,Green,3.2474525209294356,1,0.3004946000291966,1,6,1,1.9974525209294356,98.57300260005286,98.31349923212682,7.264380700013135,,209,prac,prac,2025-01-27_14h09.32.971,MID1.0,60.95921766095772,
15,1,11.0,98.573114000028,Blue,1.50858021831764,0,,-1,6,1,0.25858021831764,102.35759980004514,102.08065966876211,3.783611299993936,,209,prac,prac,2025-01-27_14h09.32.971,MID1.0,60.95921766095772,
16,1,12.0,102.35772090003593,Blue,1.9670221114345012,0,,-1,6,1,0.7170221114345012,107.05507450003643,106.76470389163111,4.696382900001481,,209,prac,prac,2025-01-27_14h09.32.971,MID1.0,60.95921766095772,
17,1,13.0,107.05513190000784,Green,2.9979090857287014,0,,-1,6,1,1.7479090857287014,113.8067501000478,113.51052206308853,6.75115480000386,,209,prac,prac,2025-01-27_14h09.32.971,MID1.0,60.95921766095772,
18,1,14.0,113.80689400003757,Green,2.3838008602208984,0,,-1,6,1,1.1338008602208984,119.34049050003523,119.02812378353033,5.532653899979778,,209,prac,prac,2025-01-27_14h09.32.971,MID1.0,60.95921766095772,
19,1,15.0,119.34062860003905,Blue,2.9923457460131537,0,,-1,6,1,1.7423457460131537,126.07290630001808,125.76281527555665,6.731283700035419,,209,prac,prac,2025-01-27_14h09.32.971,MID1.0,60.95921766095772,
20,1,15,126.07301400002325,Blue,2.9993406372618483,1,0.36670409998623654,-1,6,1,1.7493406372618483,132.85682750004344,132.51149655008032,6.782945799990557,,209,prac,prac,2025-01-27_14h09.32.971,MID1.0,60.95921766095772,
21,1,15,132.85694650001824,Blue,2.0228829962692902,1,0.3674736000248231,-1,6,1,0.7728829962692902,137.65764580003452,137.3072625426189,4.7997326999902725,,209,prac,prac,2025-01-27_14h09.32.971,MID1.0,60.95921766095772,
22,1,14,137.6577734000166,Blue,3.8676281762729965,1,0.3523439000127837,-1,6,1,2.6176281762729965,146.14057390001835,145.7925188951649,8.481801800022367,,209,prac,prac,2025-01-27_14h09.32.971,MID1.0,60.95921766095772,
23,1,14,146.14076020003995,Green,2.2065638763525923,1,0.34937060001539066,1,7,1,0.9565638763525923,151.30702350003412,150.95564664787008,5.165229299978819,,209,prac,prac,2025-01-27_14h09.32.971,MID1.0,60.95921766095772,
24,1,13,151.3071731000091,Blue,2.916204562697974,1,0.333387499966193,-1,7,1,1.666204562697974,157.9054270000197,157.53805577326602,6.597361499967519,,209,prac,prac,2025-01-27_14h09.32.971,MID1.0,60.95921766095772,
25,1,13,157.90561440004967,Blue,1.6519039756663874,0,,-1,7,1,0.40190397566638736,161.9727551000542,161.5918637245988,4.066241300024558,,209,prac,prac,2025-01-27_14h09.32.971,MID1.0,60.95921766095772,
26,1,14,161.97288920002757,Green,1.7241532915271016,0,,-1,7,1,0.4741532915271016,166.18917360005435,165.790170307653,4.215364100004081,,209,prac,prac,2025-01-27_14h09.32.971,MID1.0,60.95921766095772,
27,1,15,166.1893714000471,Green,3.1311027308530552,1,0.36555779998889193,1,8,1,1.8811027308530552,173.2233227000106,172.80237576935912,7.033087600022554,,209,prac,prac,2025-01-27_14h09.32.971,MID1.0,60.95921766095772,
28,1,15,173.22343490005005,Blue,3.4099073793171097,1,0.3664617000031285,-1,8,1,2.1599073793171097,180.8064422000316,180.37219052799333,7.582118499965873,,209,prac,prac,2025-01-27_14h09.32.971,MID1.0,60.95921766095772,
29,1,14,180.80655300000217,Green,3.7737123834253974,1,0.34977560001425445,1,9,1,2.5237123834253974,189.12309560005087,188.6696152948441,8.315739799989387,,209,prac,prac,2025-01-27_14h09.32.971,MID1.0,60.95921766095772,
30,1,14,189.1232246000436,Green,1.818007160436732,1,0.35021409997716546,1,10,1,0.568007160436732,193.53859609999927,193.05562961571758,4.414527099987026,,209,prac,prac,2025-01-27_14h09.32.971,MID1.0,60.95921766095772,
31,1,13,193.5387223000289,Green,2.386985477303586,1,0.3353967000148259,1,11,1,1.1369854773035861,199.09030080004595,198.57960057032477,5.5506736999959685,,209,prac,prac,2025-01-27_14h09.32.971,MID1.0,60.95921766095772,
32,1,13,199.0904714000062,Green,2.0026753187624973,0,,-1,11,1,0.7526753187624973,203.87340840004617,203.33495120784977,4.782035399985034,,209,prac,prac,2025-01-27_14h09.32.971,MID1.0,60.95921766095772,
33,1,14,203.87351720000152,Green,1.8942489567478726,1,0.3497434000018984,1,12,1,0.6442489567478726,208.4062221000204,207.87344912134552,4.531821799988393,,209,prac,prac,2025-01-27_14h09.32.971,MID1.0,60.95921766095772,
34,1,14,208.4063323000446,Blue,2.331932789917211,0,,-1,12,1,1.0819327899172109,213.8403573000105,213.28731470117992,5.433221000013873,,209,prac,prac,2025-01-27_14h09.32.971,MID1.0,60.95921766095772,
35,1,15,213.84058170003118,Green,1.5055585340018096,0,,-1,12,1,0.2555585340018096,217.60627840005327,217.04843176918354,3.7648367999936454,,209,prac,prac,2025-01-27_14h09.32.971,MID1.0,60.95921766095772,
36,1,15,217.60638680000557,Green,3.659139999379454,1,0.36843560001580045,1,13,1,2.409139999379454,225.68916990002617,225.11671176794243,8.081935399968643,,209,prac,prac,2025-01-27_14h09.32.971,MID1.0,60.95921766095772,
37,1,15,225.6892989000189,Blue,2.45024289631101,0,,-1,13,1,1.20024289631101,231.37272670003586,230.76719756056445,5.682533800019883,,209,prac,prac,2025-01-27_14h09.32.971,MID1.0,60.95921766095772,
38,1,15,231.3728412000346,Blue,2.921110253410092,1,0.3683440000168048,-1,13,1,1.6711102534100921,237.97153170005186,237.35941806738464,6.597703899955377,,209,prac,prac,2025-01-27_14h09.32.971,MID1.0,60.95921766095772,
39,1,15,237.97163670003647,Blue,3.5447458524813285,0,,-1,13,1,2.2947458524813285,245.8222874000203,245.1989097723473,7.849816499976441,,209,prac,prac,2025-01-27_14h09.32.971,MID1.0,60.95921766095772,
40,1,15,245.82242620002944,Blue,2.6834996367425887,1,0.36693910002941266,-1,13,1,1.4334996367425887,251.97215580003103,251.31590904583248,6.148771999985911,,209,prac,prac,2025-01-27_14h09.32.971,MID1.0,60.95921766095772,
41,1,15,251.97226310003316,Blue,2.5320185426015795,1,0.3673484000028111,-1,13,1,1.2820185426015795,257.8064797000261,257.12994613103564,5.833397799986415,,209,prac,prac,2025-01-27_14h09.32.971,MID1.0,60.95921766095772,
42,1,14,257.8065902000526,Green,2.1278100207186954,0,,-1,13,1,0.8778100207186954,262.80665290000616,262.13556617247303,4.99922629998764,,209,prac,prac,2025-01-27_14h09.32.971,MID1.0,60.95921766095772,
43,1,15,262.8067912000115,Green,3.4133171686816035,1,0.3665560999652371,1,14,1,2.1633171686816035,270.3893919000402,269.71220050983624,7.581551500014029,,209,prac,prac,2025-01-27_14h09.32.971,MID1.0,60.95921766095772,
44,1,15,270.38951110001653,Blue,3.8730644337546143,1,0.3664862000150606,-1,14,1,2.6230644337546143,278.90599040000234,278.2083293773455,8.515470299986191,,209,prac,prac,2025-01-27_14h09.32.971,MID1.0,60.95921766095772,
,,,,,,,,,,,,,,,275.47730100003537,,,,,,,
