TrialNumber,Trialn,TrialType,Partner,Feedback,ITI,ISI,ran,order,studyStart,InitFixOnset,InitFixOffset,decision_onset,resp,resp_onset,rt,ISI_onset,isi_for_trial,ISI_offset,outcome_val,outcome_onset,outcome_offset,trialDuration,ITIonset,ITIoffset,final_fix_offset
1,1,6,2,3,2,8.500000e-01,1.0,0.0,2.0999578e-06,1.6384043,5.638622,5.8506246,3.0,5.9898524,0.139228,6.0901737,3.110772,9.203776,1.0,9.203962,10.215287,4.3646626,10.215526,12.220221,--
2,2,2,1,2,3,1.700000e+00,1.0,1.0,--,--,--,12.228283,2.0,14.656528,2.4282458,14.756899,1.6717542,16.432953,5.0,16.433064,17.442013,5.2137303,17.442106,20.445723,--
3,3,2,1,2,3,1.700000e+00,1.0,2.0,--,--,--,20.44737,0.0,22.942879,2.495508,23.043161,1.604492,24.651638,999.0,24.651823,25.661303,5.2139325,25.661396,28.663853,--
4,4,3,1,3,2,8.500000e-01,1.0,3.0,--,--,--,28.665474,3.0,31.07276,2.407286,31.17308,0.8427141,32.019756,3.0,32.019875,33.02661,4.3611364,33.026707,35.029453,--
5,5,1,1,1,2,8.500000e-01,1.0,4.0,--,--,--,35.03105,2.0,35.45647,0.4254195,35.556767,2.8245804,38.385326,3.0,38.38548,39.39185,4.3607965,39.391937,41.394814,--
6,6,1,1,1,3,2.550000e+00,1.0,5.0,--,--,--,41.396484,3.0,41.72276,0.3262747,41.823044,4.6237254,46.450363,6.0,46.450493,47.458347,6.061862,47.45844,50.46155,--
7,7,1,1,1,2,1.700000e+00,1.0,6.0,--,--,--,50.463207,2.0,50.789417,0.3262118,50.8897,3.7737882,54.666786,2.0,54.66693,55.6737,5.210491,55.67379,57.676537,--
8,8,1,1,1,1,2.550000e+00,1.0,7.0,--,--,--,57.67822,3.0,58.00633,0.3281092,58.106606,4.621891,62.731808,9.0,62.731915,63.738876,6.0606585,63.739014,64.742386,--
9,9,3,1,3,1,1.700000e+00,1.0,8.0,--,--,--,64.7442,3.0,65.48955,0.7453389,65.58985,3.354661,68.9486,4.0,68.948715,69.95683,5.212628,69.956924,70.95989,--
10,10,4,2,1,3,1.700000e+00,1.0,9.0,--,--,--,71.17058,2.0,71.62302,0.4524422,71.723335,3.6475577,75.37502,1.0,75.37513,76.38241,5.2118316,76.38253,79.38711,--
11,11,1,1,1,2,1.700000e+00,1.0,10.0,--,--,--,79.39039,3.0,81.72311,2.332719,81.8234,1.767281,83.594765,9.0,83.59488,84.60071,5.2103186,84.60081,86.60366,--
12,12,4,2,1,4,1.700000e+00,1.0,11.0,--,--,--,86.80663,2.0,87.77306,0.9664309,87.873344,3.133569,91.01094,2.0,91.011055,92.01689,5.2102575,92.017006,96.020424,--
13,13,6,2,3,2,2.550000e+00,1.0,12.0,--,--,--,96.214066,3.0,96.556015,0.3419529,96.6563,4.608047,101.26832,1.0,101.268486,102.27577,6.0617123,102.27587,104.27925,--
14,14,1,1,1,1,1.700000e+00,1.0,13.0,--,--,--,104.289406,2.0,105.57279,1.2833879,105.67319,2.816612,108.49321,3.0,108.493324,109.5001,5.210692,109.5002,110.50336,--
15,15,6,2,3,4,2.550000e+00,1.0,14.0,--,--,--,110.710335,3.0,111.37265,0.6623147,111.47332,4.2876854,115.76508,1.0,115.7652,116.77109,6.060752,116.77124,120.774475,--
16,16,4,2,1,3,1.700000e+00,1.0,15.0,--,--,--,120.9746,3.0,122.35611,1.3815051,122.45639,2.718495,125.17829,9.0,125.17844,126.18582,5.2112174,126.18592,129.1897,--
17,17,4,2,1,1,8.500000e-01,1.0,16.0,--,--,--,129.39157,2.0,130.25566,0.8640864,130.3561,2.3859136,132.74608,3.0,132.7462,133.75189,4.3603315,133.75204,134.75589,--
18,18,4,2,1,4,1.700000e+00,1.0,17.0,--,--,--,135.09732,3.0,137.0057,1.9083811,137.106,2.191619,139.30128,9.0,139.30148,140.3083,5.210982,140.3084,144.31104,--
19,19,3,1,3,3,8.500000e-01,1.0,18.0,--,--,--,144.32925,2.0,146.13927,1.8100045,146.23956,1.4399955,147.68275,7.0,147.68289,148.69121,4.361942,148.6913,151.6954,--
20,20,5,2,2,3,1.700000e+00,1.0,19.0,--,--,--,151.98087,0.0,154.39267,2.4118025,154.49297,1.6881974,156.18527,999.0,156.18538,157.19029,5.20943,157.19038,160.19388,--
21,21,1,1,1,2,1.700000e+00,1.0,20.0,--,--,--,160.19681,3.0,161.17241,0.9755974,161.27267,3.1244025,164.40073,9.0,164.40083,165.40823,5.211421,165.40833,167.41125,--
22,22,3,1,3,2,2.550000e+00,1.0,21.0,--,--,--,167.41284,0.0,169.90878,2.495942,170.00906,2.4540577,172.46838,999.0,172.4685,173.47409,6.0612445,173.47418,175.47723,--
23,23,1,1,1,1,2.550000e+00,1.0,22.0,--,--,--,175.47899,2.0,176.43881,0.9598266,176.53915,3.9901733,180.53299,1.0,180.53313,181.54443,6.0654373,181.54468,182.5478,--
24,24,4,2,1,1,1.700000e+00,1.0,23.0,--,--,--,182.8047,0.0,185.22044,2.415738,185.32072,1.6842618,187.00957,999.0,187.00969,188.01532,5.210624,188.01541,189.01796,--
25,25,3,1,3,4,2.550000e+00,1.0,24.0,--,--,--,189.02556,3.0,190.10562,1.0800612,190.2059,3.8699389,194.07896,2.0,194.07907,195.08562,6.0600543,195.08572,199.08984,--
26,26,4,2,1,4,8.500000e-01,1.0,25.0,--,--,--,199.30313,2.0,200.17264,0.869507,200.27296,2.380493,202.65683,1.0,202.65694,203.66289,4.359765,203.663,207.66617,--
27,27,1,1,1,3,8.500000e-01,1.0,26.0,--,--,--,207.66983,3.0,209.27219,1.6023495,209.37247,1.6476505,211.0235,8.0,211.02359,212.037,4.3671656,212.0372,215.04164,--
28,28,5,2,2,1,8.500000e-01,1.0,27.0,--,--,--,215.2469,2.0,217.35587,2.1089606,217.45618,1.1410393,218.60292,5.0,218.60304,219.60905,4.362142,219.60919,220.61243,--
29,29,6,2,3,3,8.500000e-01,1.0,28.0,--,--,--,220.80807,0.0,223.24345,2.4353802,223.34373,0.8146198,224.16177,999.0,224.1619,225.16644,4.3583765,225.16655,228.17029,--
30,30,6,2,3,4,1.700000e+00,1.0,29.0,--,--,--,228.38121,3.0,230.80551,2.4243119,230.90579,1.6756881,232.58511,4.0,232.58524,233.59181,5.210611,233.59192,237.59538,--
31,31,4,2,1,2,8.500000e-01,1.0,30.0,--,--,--,237.83493,0.0,240.2542,2.4192526,240.35449,0.8307473,241.18896,999.0,241.18907,242.19418,4.359248,242.19456,244.19931,--
32,32,6,2,3,4,8.500000e-01,1.0,31.0,--,--,--,244.42249,2.0,246.43958,2.0170808,246.53986,1.2329192,247.77551,7.0,247.77565,248.79437,4.371886,248.79446,252.79837,--
33,33,4,2,1,2,2.550000e+00,1.0,32.0,--,--,--,253.04935,3.0,254.52191,1.4725623,254.6223,3.4774377,258.10358,9.0,258.1037,259.11087,6.06152,259.11096,261.1138,--
34,34,4,2,1,2,8.500000e-01,1.0,33.0,--,--,--,261.35522,2.0,262.22134,0.8661028,262.32162,2.3838973,264.7096,4.0,264.70972,265.71518,4.3599377,265.71527,267.71994,--
35,35,5,2,2,1,8.500000e-01,1.0,34.0,--,--,--,267.9379,2.0,268.3887,0.4508214,268.48904,2.7991786,271.2923,5.0,271.2924,272.29797,4.3600936,272.29807,273.30176,--
36,36,3,1,3,1,2.550000e+00,1.0,35.0,--,--,--,273.30478,2.0,274.70496,1.4001937,274.80527,3.5498064,278.35788,7.0,278.35797,279.36542,6.060653,279.3655,280.36935,--
37,37,6,2,3,1,1.700000e+00,1.0,36.0,--,--,--,280.62888,3.0,282.12167,1.4928187,282.22195,2.6071813,284.83322,4.0,284.8333,285.84723,5.2183623,285.84732,286.8509,--
38,38,3,1,3,3,8.500000e-01,1.0,37.0,--,--,--,286.85428,0.0,289.27545,2.4211822,289.37573,0.8288178,290.2079,999.0,290.208,291.21317,4.3588905,291.21326,294.21793,--
39,39,6,2,3,2,1.700000e+00,1.0,38.0,--,--,--,294.42,2.0,295.38867,0.9686451,295.48895,3.1313548,298.62405,9.0,298.62433,299.63364,5.2135944,299.6338,301.63748,--
40,40,5,2,2,3,2.550000e+00,1.0,39.0,--,--,--,301.85712,2.0,303.23782,1.3806902,303.3381,3.5693097,306.91058,5.0,306.91068,307.91754,6.060427,307.91766,310.921,--
41,41,2,1,2,1,8.500000e-01,1.0,40.0,--,--,--,310.92422,0.0,313.34338,2.4191353,313.44366,0.8308647,314.27783,999.0,314.27792,315.284,4.359752,315.2841,316.2885,--
42,42,1,1,1,1,1.700000e+00,1.0,41.0,--,--,--,316.2901,0.0,318.7879,2.497795,318.88843,1.602205,320.49777,999.0,320.4979,321.51175,5.221637,321.51184,322.5157,--
43,43,6,2,3,2,2.550000e+00,1.0,42.0,--,--,--,322.7136,3.0,324.30487,1.5912634,324.40518,3.3587365,327.76804,3.0,327.76813,328.77402,6.0604167,328.7741,330.77676,--
44,44,5,2,2,4,2.550000e+00,1.0,43.0,--,--,--,330.98346,0.0,333.40488,2.4214025,333.50516,2.5285976,336.03693,999.0,336.03708,337.04367,6.060223,337.0438,341.04712,--
45,45,2,1,2,1,2.550000e+00,1.0,44.0,--,--,--,341.05005,3.0,342.85483,1.8047831,342.9551,3.145217,346.10403,5.0,346.1042,347.11133,6.061283,347.1116,348.11526,--
46,46,3,1,3,3,2.550000e+00,1.0,45.0,--,--,--,348.11743,2.0,349.17133,1.0538944,349.27176,3.8961055,353.17297,8.0,353.1731,354.17905,6.061617,354.17917,357.1828,--
47,47,4,2,1,1,2.550000e+00,1.0,46.0,--,--,--,357.4011,3.0,358.0544,0.653316,358.1547,4.296684,362.45422,6.0,362.45435,363.46,6.058911,363.4601,364.4635,--
48,48,3,1,3,4,2.550000e+00,1.0,47.0,--,--,--,364.46997,2.0,365.65463,1.1846507,365.7549,3.7653494,369.52472,9.0,369.52487,370.53244,6.062466,370.53253,374.53632,--
49,49,3,1,3,3,8.500000e-01,1.0,48.0,--,--,--,374.538,2.0,375.80414,1.2661614,375.90442,1.9838386,377.89212,7.0,377.89224,378.89777,4.3597813,378.8979,381.90106,--
50,50,6,2,3,4,2.550000e+00,1.0,49.0,--,--,--,382.1067,3.0,384.02097,1.9142774,384.12125,3.0357225,387.1602,1.0,387.16028,388.166,6.0592995,388.1661,392.1696,--
51,51,6,2,3,3,8.500000e-01,1.0,50.0,--,--,--,392.36685,2.0,393.53854,1.1716974,393.63882,2.0783026,395.72122,7.0,395.7213,396.72644,4.3596096,396.72656,399.73083,--
52,52,3,1,3,2,2.550000e+00,1.0,51.0,--,--,--,399.74136,3.0,401.53763,1.7962596,401.63794,3.1537404,404.79453,4.0,404.79465,405.80118,6.059816,405.8013,407.80386,--
53,53,1,1,1,4,1.700000e+00,1.0,52.0,--,--,--,407.8057,2.0,408.871,1.0653234,408.9713,3.0346768,412.0095,4.0,412.0096,413.0155,5.2098174,413.0156,417.01886,--
54,54,2,1,2,3,8.500000e-01,1.0,53.0,--,--,--,417.02185,3.0,417.97098,0.9491481,418.0713,2.3008518,420.3755,5.0,420.37558,421.381,4.359187,421.3811,424.3851,430.00046
