TrialNumber,Trialn,TrialType,Partner,Feedback,ITI,ISI,ran,order,studyStart,InitFixOnset,InitFixOffset,decision_onset,resp,resp_onset,rt,ISI_onset,isi_for_trial,ISI_offset,outcome_val,outcome_onset,outcome_offset,trialDuration,ITIonset,ITIoffset,final_fix_offset
1,1,4,2,1,2,8.500000e-01,1.0,0.0,3.2000244e-06,0.0098371,4.0095916,4.211902,2.0,4.7378182,0.5259162,4.8381486,2.724084,7.565533,4.0,7.565669,8.573265,4.361363,8.573427,10.57497,--
2,2,5,2,2,1,8.500000e-01,1.0,1.0,--,--,--,10.766679,3.0,11.287961,0.5212829,11.388247,2.728717,14.11898,5.0,14.119089,15.126114,4.3594356,15.126251,16.128078,--
3,3,4,2,1,4,8.500000e-01,1.0,2.0,--,--,--,16.320427,2.0,16.738007,0.4175807,16.838308,2.8324194,19.673046,2.0,19.673157,20.67884,4.358415,20.678974,24.680313,--
4,4,1,1,1,1,2.550000e+00,1.0,3.0,--,--,--,24.69773,3.0,25.0211,0.3233705,25.121387,4.6266294,29.748955,9.0,29.749065,30.754238,6.0565085,30.754368,31.755777,--
5,5,6,2,3,4,2.550000e+00,1.0,4.0,--,--,--,31.949223,2.0,32.47145,0.522228,32.57174,4.427772,37.000954,9.0,37.00106,38.015667,6.066445,38.015797,42.017704,--
6,6,3,1,3,4,2.550000e+00,1.0,5.0,--,--,--,42.020638,3.0,42.33792,0.3172849,42.43823,4.632715,47.073147,3.0,47.07326,48.079063,6.058426,48.079193,52.081303,--
7,7,3,1,3,3,8.500000e-01,1.0,6.0,--,--,--,52.083008,2.0,52.505142,0.4221349,52.605534,2.8278651,55.43493,8.0,55.43504,56.44112,4.358115,56.441254,59.442944,--
8,8,4,2,1,1,2.550000e+00,1.0,7.0,--,--,--,59.635452,3.0,59.954746,0.3192925,60.05508,4.6307073,64.68693,8.0,64.68704,65.70005,6.064597,65.70018,66.70162,--
9,9,5,2,2,3,1.700000e+00,1.0,8.0,--,--,--,66.8914,2.0,67.32197,0.430569,67.42226,3.669431,71.094826,5.0,71.09494,72.100044,5.208641,72.100174,75.10192,--
10,10,2,1,2,1,8.500000e-01,1.0,9.0,--,--,--,75.10488,3.0,75.421455,0.3165755,75.52181,2.9334245,78.45793,5.0,78.45804,79.4617,4.3568177,79.46183,80.46391,--
11,11,3,1,3,2,8.500000e-01,1.0,10.0,--,--,--,80.465645,2.0,81.1897,0.7240482,81.28997,2.5259519,83.817924,8.0,83.81803,84.82279,4.3571444,84.82292,86.82436,--
12,12,6,2,3,2,2.550000e+00,1.0,11.0,--,--,--,87.01525,3.0,87.33858,0.3233252,87.43887,4.6266747,92.06691,3.0,92.06702,93.07201,6.0567603,93.072136,95.07365,--
13,13,4,2,1,4,1.700000e+00,1.0,12.0,--,--,--,95.26324,2.0,95.6892,0.4259664,95.78954,3.6740336,99.46581,4.0,99.46592,100.482544,5.219307,100.48267,104.483925,--
14,14,3,1,3,3,2.550000e+00,1.0,13.0,--,--,--,104.48685,3.0,104.90583,0.4189833,105.00612,4.531017,109.539925,3.0,109.54003,110.54502,6.0581703,110.54515,113.546875,--
15,15,1,1,1,1,1.700000e+00,1.0,14.0,--,--,--,113.54854,3.0,113.972404,0.4238656,114.072685,3.6761343,117.751884,7.0,117.75199,118.75903,5.210497,118.759155,119.76087,--
16,16,1,1,1,2,1.700000e+00,1.0,15.0,--,--,--,119.76253,3.0,120.289246,0.5267203,120.389534,3.5732796,123.96488,6.0,123.96499,124.97,5.207479,124.97013,126.97188,--
17,17,2,1,2,1,2.550000e+00,1.0,16.0,--,--,--,126.97351,2.0,127.50603,0.5325157,127.606316,4.4174843,132.02588,5.0,132.02599,133.03099,6.0574775,133.03111,134.03305,--
18,18,5,2,2,4,2.550000e+00,1.0,17.0,--,--,--,134.22339,3.0,134.7562,0.5328138,134.85648,4.4171863,139.2759,5.0,139.27602,140.29164,6.0682616,140.29178,144.29387,--
19,19,3,1,3,1,1.700000e+00,1.0,18.0,--,--,--,144.29683,2.0,144.72299,0.426162,144.82327,3.673838,148.49887,7.0,148.499,149.5044,5.207557,149.50452,150.50586,--
20,20,4,2,1,3,1.700000e+00,1.0,19.0,--,--,--,150.6985,2.0,151.12285,0.4243358,151.22313,3.6756642,154.90001,2.0,154.90012,155.90475,5.2062426,155.90488,158.90727,--
21,21,3,1,3,2,2.550000e+00,1.0,20.0,--,--,--,158.91023,2.0,159.22409,0.3138674,159.32437,4.6361327,163.96288,9.0,163.96298,164.96799,6.057757,164.96811,166.96988,--
22,22,4,2,1,2,8.500000e-01,1.0,21.0,--,--,--,167.16278,2.0,167.4894,0.3266237,167.58968,2.9233763,170.51486,4.0,170.51497,171.52798,4.3652134,171.52812,173.52985,--
23,23,1,1,1,2,1.700000e+00,1.0,22.0,--,--,--,173.53284,2.0,174.05644,0.5236027,174.15672,3.5763972,177.73506,1.0,177.73517,178.73994,5.2071033,178.74007,180.74184,--
24,24,1,1,1,1,2.550000e+00,1.0,23.0,--,--,--,180.74358,2.0,181.27348,0.5299108,181.37376,4.4200892,185.79684,4.0,185.79695,186.80203,6.058458,186.80215,187.8035,--
25,25,6,2,3,4,2.550000e+00,1.0,24.0,--,--,--,187.99223,3.0,188.52347,0.5312235,188.62376,4.4187765,193.04482,1.0,193.04494,194.04964,6.0573916,194.04976,198.05283,--
26,26,6,2,3,4,1.700000e+00,1.0,25.0,--,--,--,198.24174,2.0,198.65768,0.4159394,198.75798,3.6840606,202.44464,6.0,202.44475,203.4501,5.2083526,203.45023,207.45183,--
27,27,6,2,3,3,8.500000e-01,1.0,26.0,--,--,--,207.64198,3.0,208.17383,0.5318482,208.27417,2.7181518,210.99496,1.0,210.99507,211.99979,4.3578153,211.99992,215.00182,--
28,28,2,1,2,3,1.700000e+00,1.0,27.0,--,--,--,215.00468,2.0,215.52362,0.5189458,215.6239,3.5810542,219.20682,5.0,219.20692,220.22453,5.21986,220.22467,223.22581,--
29,29,4,2,1,3,1.700000e+00,1.0,28.0,--,--,--,223.41556,3.0,223.74004,0.3244733,223.8403,3.7755268,227.61766,7.0,227.61778,228.62328,5.2077217,228.62341,231.62497,--
30,30,3,1,3,3,8.500000e-01,1.0,29.0,--,--,--,231.62798,2.0,232.1572,0.5292333,232.25748,2.7207668,234.97939,6.0,234.97949,235.984,4.356017,235.98412,238.98581,--
31,31,1,1,1,3,2.550000e+00,1.0,30.0,--,--,--,238.98749,2.0,239.60919,0.6216968,239.70947,4.3283033,244.03981,1.0,244.03992,245.04482,6.057327,245.04494,248.0468,--
32,32,4,2,1,2,2.550000e+00,1.0,31.0,--,--,--,248.24594,3.0,248.57365,0.3277151,248.67393,4.622285,253.29832,6.0,253.29843,254.30249,6.056544,254.30261,256.30472,--
33,33,6,2,3,2,2.550000e+00,1.0,32.0,--,--,--,256.5181,2.0,256.84055,0.3224614,256.94092,4.6275387,261.5704,6.0,261.57053,262.58798,6.069897,262.58813,264.58978,--
34,34,2,1,2,3,8.500000e-01,1.0,33.0,--,--,--,264.5929,2.0,265.2241,0.631183,265.32437,2.618817,267.9448,5.0,267.94492,268.9499,4.3569865,268.95,271.95178,--
35,35,3,1,3,4,2.550000e+00,1.0,34.0,--,--,--,271.95343,3.0,272.27405,0.3205994,272.3744,4.6294007,277.00555,2.0,277.00568,278.01028,6.0568314,278.0104,282.01178,--
36,36,3,1,3,1,2.550000e+00,1.0,35.0,--,--,--,282.0135,2.0,282.54108,0.5276054,282.64145,4.4223948,287.0668,9.0,287.0669,288.0705,6.0570064,288.07062,289.07278,--
37,37,6,2,3,1,1.700000e+00,1.0,36.0,--,--,--,289.2721,2.0,289.90738,0.6352917,290.00766,3.4647083,293.47375,8.0,293.47388,294.47787,5.205766,294.478,295.47977,--
38,38,4,2,1,1,1.700000e+00,1.0,37.0,--,--,--,295.6799,2.0,296.40784,0.7279496,296.50815,3.3720503,299.88287,4.0,299.883,300.89566,5.215756,300.89578,301.89752,--
39,39,4,2,1,1,8.500000e-01,1.0,38.0,--,--,--,302.09103,3.0,302.6108,0.5197722,302.7111,2.7302277,305.44376,9.0,305.44388,306.44757,4.3565183,306.4477,307.44983,--
40,40,1,1,1,3,8.500000e-01,1.0,39.0,--,--,--,307.45276,2.0,308.07428,0.6215221,308.17456,2.6284778,310.8048,2.0,310.8049,311.80893,4.3561616,311.80905,314.81042,--
41,41,6,2,3,4,8.500000e-01,1.0,40.0,--,--,--,315.00253,3.0,315.4249,0.42234,315.5252,2.82766,318.3552,3.0,318.3553,319.35986,4.357334,319.36002,323.36176,--
42,42,3,1,3,3,8.500000e-01,1.0,41.0,--,--,--,323.36456,2.0,323.79172,0.4271321,323.892,2.8228679,326.71674,7.0,326.71686,327.72052,4.355951,327.72064,330.72192,--
43,43,6,2,3,2,8.500000e-01,1.0,42.0,--,--,--,330.92288,2.0,331.55777,0.6348936,331.65805,2.6151063,334.27576,9.0,334.27585,335.2918,4.368921,335.29193,337.2934,--
44,44,5,2,2,1,8.500000e-01,1.0,43.0,--,--,--,337.49246,2.0,338.0251,0.532631,338.12543,2.717369,340.84473,5.0,340.84485,341.84952,4.357074,341.84967,342.8509,--
45,45,4,2,1,4,1.700000e+00,1.0,44.0,--,--,--,343.04575,3.0,343.57526,0.5295314,343.67557,3.5704687,347.24805,8.0,347.24817,348.25372,5.207982,348.25385,352.25574,--
46,46,1,1,1,2,8.500000e-01,1.0,45.0,--,--,--,352.25873,3.0,352.57483,0.3160821,352.6751,2.933918,355.61075,7.0,355.61084,356.6145,4.355773,356.61465,358.61588,--
47,47,6,2,3,2,1.700000e+00,1.0,46.0,--,--,--,358.81375,2.0,359.24216,0.4284047,359.34247,3.6715953,363.0167,6.0,363.0168,364.02182,5.208095,364.02197,366.02493,--
48,48,1,1,1,4,1.700000e+00,1.0,47.0,--,--,--,366.02777,2.0,366.34155,0.3138016,366.44186,3.7861984,370.22937,4.0,370.2295,371.24493,5.217186,371.2451,375.2467,--
49,49,1,1,1,1,1.700000e+00,1.0,48.0,--,--,--,375.24838,3.0,375.6754,0.4270452,375.77573,3.6729548,379.4506,6.0,379.45068,380.45483,5.206453,380.45496,381.45682,--
50,50,3,1,3,2,2.550000e+00,1.0,49.0,--,--,--,381.4584,2.0,382.09192,0.6335055,382.19223,4.3164945,386.51132,6.0,386.51144,387.5158,6.057411,387.51596,389.5177,--
51,51,6,2,3,3,8.500000e-01,1.0,50.0,--,--,--,389.71014,2.0,390.3419,0.6317174,390.4422,2.6182826,393.0627,6.0,393.0628,394.06638,4.356221,394.0665,397.0677,--
52,52,2,1,2,3,1.700000e+00,1.0,51.0,--,--,--,397.07056,2.0,397.80917,0.7386108,397.90945,3.3613892,401.27332,5.0,401.2734,402.2788,5.2082453,402.27893,405.2807,--
53,53,5,2,2,3,2.550000e+00,1.0,52.0,--,--,--,405.47552,3.0,405.79196,0.3164393,405.89227,4.6335607,410.52853,5.0,410.52866,411.5324,6.056885,411.53253,414.53467,--
54,54,1,1,1,2,1.700000e+00,1.0,53.0,--,--,--,414.54532,2.0,414.8759,0.3305897,414.97626,3.7694104,418.74738,1.0,418.74747,419.7529,5.2075963,419.75302,421.75452,430.00012
