TrialNumber,Trialn,TrialType,Partner,Feedback,ITI,ISI,ran,order,studyStart,InitFixOnset,InitFixOffset,decision_onset,resp,resp_onset,rt,ISI_onset,isi_for_trial,ISI_offset,outcome_val,outcome_onset,outcome_offset,trialDuration,ITIonset,ITIoffset,final_fix_offset
1,1,3,1,3,1,2.550000e+00,1.0,0.0,2.6000198e-06,7.671924,11.671759,11.678119,0.0,14.131727,2.4536088,14.232226,2.4963913,16.72997,999.0,16.730108,17.736015,6.057896,17.736126,18.737734,--
2,2,1,1,1,3,2.550000e+00,1.0,1.0,--,--,--,18.740608,0.0,21.194092,2.4534843,21.29435,2.4965158,23.793781,999.0,23.79389,24.79645,6.055842,24.796541,27.79923,--
3,3,5,2,2,3,1.700000e+00,1.0,2.0,--,--,--,28.02804,0.0,30.502022,2.4739835,30.60232,1.6260165,32.231358,999.0,32.23149,33.23433,5.206291,33.234417,36.23574,--
4,4,6,2,3,3,8.500000e-01,1.0,3.0,--,--,--,36.42558,0.0,38.925953,2.500372,39.02626,0.7496281,39.776695,999.0,39.77681,40.7792,4.3536205,40.779297,43.782024,--
5,5,6,2,3,2,1.700000e+00,1.0,4.0,--,--,--,43.962196,0.0,46.43501,2.4728107,46.535275,1.6271892,48.164642,999.0,48.164772,49.16777,5.2055717,49.167873,51.169167,--
6,6,3,1,3,2,8.500000e-01,1.0,5.0,--,--,--,51.172367,0.0,53.64968,2.4773157,53.750008,0.7726844,54.525208,999.0,54.52531,55.527637,4.3552723,55.527725,57.529552,--
7,7,3,1,3,4,2.550000e+00,1.0,6.0,--,--,--,57.531334,0.0,59.982616,2.4512856,60.082996,2.4987142,62.583088,999.0,62.583218,63.58554,6.054209,63.585636,67.5873,--
8,8,3,1,3,3,8.500000e-01,1.0,7.0,--,--,--,67.589066,0.0,70.04091,2.451838,70.14119,0.798162,70.94163,999.0,70.94174,71.94451,4.355442,71.944626,74.94605,--
9,9,4,2,1,1,8.500000e-01,1.0,8.0,--,--,--,75.1674,0.0,77.63798,2.4705832,77.73825,0.7794168,78.520424,999.0,78.52055,79.52275,4.3553553,79.52285,80.524254,--
10,10,3,1,3,3,2.550000e+00,1.0,9.0,--,--,--,80.52707,0.0,83.002754,2.4756851,83.10307,2.474315,85.57945,999.0,85.57958,86.58236,6.055294,86.58251,89.58464,--
11,11,6,2,3,3,8.500000e-01,1.0,10.0,--,--,--,89.81553,0.0,92.28801,2.4724836,92.38827,0.7775163,93.16753,999.0,93.16772,94.1711,4.355571,94.17119,97.17321,--
12,12,1,1,1,2,1.700000e+00,1.0,11.0,--,--,--,97.18817,0.0,99.66172,2.4735496,99.762024,1.6264503,101.39073,999.0,101.39086,102.393814,5.2056456,102.393906,104.39539,--
13,13,5,2,2,4,2.550000e+00,1.0,12.0,--,--,--,104.61459,0.0,107.08508,2.4704897,107.1854,2.4795103,109.66752,999.0,109.667625,110.669846,6.055256,110.66997,114.6716,--
14,14,4,2,1,1,2.550000e+00,1.0,13.0,--,--,--,114.85766,0.0,117.328896,2.471244,117.42922,2.4787557,119.9087,999.0,119.908806,120.91161,6.053957,120.91172,121.913605,--
15,15,5,2,2,3,2.550000e+00,1.0,14.0,--,--,--,122.09964,0.0,124.57217,2.472526,124.67247,2.477474,127.15207,999.0,127.15221,128.15518,6.0555468,128.15527,131.15662,--
16,16,2,1,2,3,8.500000e-01,1.0,15.0,--,--,--,131.15947,0.0,133.6372,2.477741,133.73752,0.7722589,134.51144,999.0,134.51155,135.51385,4.354393,135.51395,138.51717,--
17,17,4,2,1,2,8.500000e-01,1.0,16.0,--,--,--,138.78764,0.0,141.2605,2.4728684,141.36082,0.7771316,142.14107,999.0,142.1412,143.14357,4.355926,143.1437,145.1445,--
18,18,2,1,2,3,1.700000e+00,1.0,17.0,--,--,--,145.14755,0.0,147.6278,2.4802494,147.72809,1.6197505,149.35028,999.0,149.35039,150.3539,5.206347,150.35399,153.35603,--
19,19,2,1,2,1,2.550000e+00,1.0,18.0,--,--,--,153.35785,0.0,155.82101,2.4631696,155.92131,2.4868305,158.40965,999.0,158.40976,159.41243,6.0545855,159.41252,160.41412,--
20,20,1,1,1,4,1.700000e+00,1.0,19.0,--,--,--,160.41586,0.0,162.86864,2.4527743,162.96925,1.6472259,164.61873,999.0,164.61884,165.6206,5.204745,165.62071,169.6223,--
21,21,1,1,1,1,1.700000e+00,1.0,20.0,--,--,--,169.62422,0.0,172.07819,2.4539568,172.17844,1.6460432,173.82697,999.0,173.8271,174.82935,5.205122,174.82951,175.83185,--
22,22,4,2,1,2,8.500000e-01,1.0,21.0,--,--,--,176.03984,0.0,178.51062,2.470788,178.61092,0.779212,179.39127,999.0,179.3914,180.39374,4.3539023,180.39388,182.39531,--
23,23,4,2,1,4,8.500000e-01,1.0,22.0,--,--,--,182.6153,0.0,185.11209,2.4968023,185.21242,0.7531976,185.96977,999.0,185.96994,186.9725,4.357214,186.9726,190.97469,--
24,24,1,1,1,3,8.500000e-01,1.0,23.0,--,--,--,190.9776,0.0,193.45523,2.477633,193.55574,0.7723671,194.33035,999.0,194.33049,195.3326,4.3549914,195.33269,198.33533,--
25,25,4,2,1,1,1.700000e+00,1.0,24.0,--,--,--,198.59816,0.0,201.07182,2.4736562,201.17207,1.6263438,202.80103,999.0,202.80116,203.80363,5.2054744,203.80373,204.80527,--
26,26,2,1,2,3,1.700000e+00,1.0,25.0,--,--,--,204.80826,0.0,207.286,2.4777389,207.38628,1.622261,209.01077,999.0,209.01088,210.0138,5.205539,210.0139,213.01547,--
27,27,4,2,1,4,1.700000e+00,1.0,26.0,--,--,--,213.31407,0.0,215.7905,2.4764245,215.89081,1.6235756,217.517,999.0,217.51714,218.51935,5.205278,218.51945,222.521,--
28,28,6,2,3,2,2.550000e+00,1.0,27.0,--,--,--,222.70361,0.0,225.17873,2.475112,225.27899,2.474888,227.75542,999.0,227.75552,228.75803,6.054421,228.75812,230.75974,--
29,29,1,1,1,2,1.700000e+00,1.0,28.0,--,--,--,230.76292,0.0,233.24263,2.479706,233.34297,1.6202939,234.96553,999.0,234.96564,235.97032,5.207389,235.97041,237.9716,--
30,30,5,2,2,1,8.500000e-01,1.0,29.0,--,--,--,238.30714,0.0,240.78104,2.473892,240.88162,0.776108,241.6605,999.0,241.66063,242.6632,4.356045,242.66328,243.66476,--
31,31,3,1,3,3,8.500000e-01,1.0,30.0,--,--,--,243.66782,0.0,246.14473,2.4769185,246.24503,0.7730815,247.0206,999.0,247.02072,248.0227,4.354903,248.0228,251.02594,--
32,32,6,2,3,4,2.550000e+00,1.0,31.0,--,--,--,251.4695,0.0,253.94603,2.476538,254.04637,2.473462,256.52206,999.0,256.5222,257.5239,6.054397,257.524,261.52615,--
33,33,3,1,3,1,1.700000e+00,1.0,32.0,--,--,--,261.53885,0.0,264.01904,2.480209,264.11935,1.619791,265.7407,999.0,265.7408,266.744,5.205155,266.7441,267.74554,--
34,34,1,1,1,2,8.500000e-01,1.0,33.0,--,--,--,267.74777,0.0,270.20374,2.455954,270.30402,0.794046,271.10043,999.0,271.10056,272.1031,4.3553014,272.1032,274.1046,--
35,35,6,2,3,2,2.550000e+00,1.0,34.0,--,--,--,274.31036,0.0,276.78433,2.4739547,276.88464,2.4760454,279.36334,999.0,279.36346,280.36618,6.0558267,280.36627,282.36835,--
36,36,3,1,3,4,2.550000e+00,1.0,35.0,--,--,--,282.37128,0.0,284.84848,2.4771914,284.94876,2.4728086,287.42297,999.0,287.4231,288.42642,6.055148,288.42654,292.42816,--
37,37,6,2,3,4,8.500000e-01,1.0,36.0,--,--,--,292.6419,0.0,295.11334,2.4714327,295.2136,0.7785672,295.99432,999.0,295.99448,296.99704,4.3551354,296.99713,300.99847,--
38,38,1,1,1,1,1.700000e+00,1.0,37.0,--,--,--,301.0016,0.0,303.47797,2.4763803,303.57834,1.6236196,305.20413,999.0,305.20425,306.20697,5.205369,306.20706,307.2088,--
39,39,6,2,3,4,2.550000e+00,1.0,38.0,--,--,--,307.4693,0.0,309.94144,2.4721437,310.04922,2.4778564,312.52878,999.0,312.52893,313.5307,6.0613985,313.53082,317.5325,--
40,40,1,1,1,1,2.550000e+00,1.0,39.0,--,--,--,317.5361,0.0,320.01447,2.4783707,320.1152,2.4716294,322.58887,999.0,322.589,323.59265,6.056552,323.59274,324.5941,--
41,41,3,1,3,3,8.500000e-01,1.0,40.0,--,--,--,324.59586,0.0,327.04855,2.4527125,327.14883,0.7972875,327.9486,999.0,327.94873,328.95093,4.3550663,328.95102,331.95297,--
42,42,2,1,2,1,8.500000e-01,1.0,41.0,--,--,--,331.95468,0.0,334.40848,2.453784,334.50882,0.7962161,335.30698,999.0,335.30707,336.30905,4.3543477,336.30914,337.31058,--
43,43,6,2,3,4,1.700000e+00,1.0,42.0,--,--,--,337.50424,0.0,339.97656,2.472315,340.0769,1.627685,341.70578,999.0,341.70587,342.7085,5.2042613,342.7086,346.71,--
44,44,3,1,3,2,2.550000e+00,1.0,43.0,--,--,--,346.7128,0.0,349.19174,2.4789448,349.2922,2.4710553,351.7664,999.0,351.7665,352.7692,6.0564084,352.76932,354.771,--
45,45,1,1,1,2,1.700000e+00,1.0,44.0,--,--,--,354.77277,0.0,357.22623,2.4534588,357.3265,1.6465412,358.97482,999.0,358.97495,359.9776,5.2048135,359.97772,361.9796,--
46,46,3,1,3,2,2.550000e+00,1.0,45.0,--,--,--,361.9818,0.0,364.43536,2.453536,364.5357,2.496464,367.03525,999.0,367.0354,368.03815,6.0563235,368.03827,370.04028,--
47,47,1,1,1,1,2.550000e+00,1.0,46.0,--,--,--,370.04187,0.0,372.49612,2.454244,372.5964,2.495756,375.09344,999.0,375.09357,376.09595,6.054063,376.09604,377.0973,--
48,48,6,2,3,1,1.700000e+00,1.0,47.0,--,--,--,377.29538,0.0,379.7713,2.475936,379.87158,1.624064,381.4982,999.0,381.49832,382.50052,5.2051373,382.5006,383.50223,--
49,49,4,2,1,3,1.700000e+00,1.0,48.0,--,--,--,383.68686,0.0,386.16306,2.476192,386.26334,1.6238081,387.88928,999.0,387.8894,388.8929,5.206065,388.893,391.89468,--
50,50,4,2,1,4,1.700000e+00,1.0,49.0,--,--,--,392.08008,0.0,394.55493,2.4748397,394.65518,1.6251602,396.28375,999.0,396.28387,397.28723,5.2071347,397.28732,401.28885,--
51,51,5,2,2,1,8.500000e-01,1.0,50.0,--,--,--,401.46915,0.0,403.9426,2.4734461,404.04288,0.7765539,404.8215,999.0,404.8216,405.82465,4.3555107,405.82477,406.82788,--
52,52,4,2,1,3,1.700000e+00,1.0,51.0,--,--,--,407.01654,0.0,409.492,2.4754682,409.59232,1.6245319,411.21933,999.0,411.21945,412.22284,5.206287,412.2229,415.22464,--
53,53,6,2,3,2,8.500000e-01,1.0,52.0,--,--,--,415.43228,0.0,417.9074,2.4751227,418.0077,0.7748773,418.78378,999.0,418.78387,419.787,4.354689,419.78708,421.78998,--
54,54,4,2,1,2,2.550000e+00,1.0,53.0,--,--,--,422.0223,0.0,424.49863,2.476308,424.59894,2.473692,427.0749,999.0,427.07504,428.07843,6.0561037,428.07852,430.0807,440.0003
