.thisTrialN,.stepSize,.intensity,time.onset,cue.color,isi_duration,.response,Trial.rewardType,Total_Earned,iti_final,time.global,time.nominal,time.trial,Target_Resp.rt,participant,session,run,date,expName,frameRate,
0,6,10.0,13.038866099901497,Green,1.5,0,-1,0,7.75,24.28893949976191,24.272421299945563,11.24963470036164,,999,1,2,2025-02-10_08h51.42.242,MID1.0,60.07438398327463,
1,3,15,24.288981299847364,Green,1.5,1,1,1,3.75,31.57225429965183,31.522421299945563,7.282923500053585,0.3663713997229934,999,1,2,2025-02-10_08h51.42.242,MID1.0,60.07438398327463,
2,3,12,31.572295099962503,Green,3.5,1,1,2,3.75,40.8391546998173,40.77242129994556,9.266509299632162,0.31697409972548485,999,1,2,2025-02-10_08h51.42.242,MID1.0,60.07438398327463,
3,3,12,40.83919740002602,Green,2.5,1,1,3,4.75,50.10597809962928,50.02242129994556,9.266429599840194,0.3168478002771735,999,1,2,2025-02-10_08h51.42.242,MID1.0,60.07438398327463,
4,3,9,50.10601899959147,Blue,1.5,1,-1,3,3.75,57.389228999614716,57.27242129994556,7.282869199756533,0.2666982999071479,999,1,2,2025-02-10_08h51.42.242,MID1.0,60.07438398327463,
5,3,9,57.389270699582994,Blue,2.0,1,-1,3,8.25,69.67279779957607,69.52242129994556,12.283204099629074,0.2664682003669441,999,1,2,2025-02-10_08h51.42.242,MID1.0,60.07438398327463,
6,3,6,69.67285809991881,Green,2.0,1,1,4,6.25,79.95617799973115,79.77242129994556,10.282941000070423,0.21676040021702647,999,1,2,2025-02-10_08h51.42.242,MID1.0,60.07438398327463,
7,3,6,79.9562199995853,Green,2.0,0,-1,4,8.25,92.22309139976278,92.02242129994556,12.266516900155693,,999,1,2,2025-02-10_08h51.42.242,MID1.0,60.07438398327463,
8,3,9,92.22313229972497,Blue,3.0,1,-1,4,9.25,106.49003829993308,106.27242129994556,14.266559099778533,0.26697919983416796,999,1,2,2025-02-10_08h51.42.242,MID1.0,60.07438398327463,
9,2,9,106.49007939966395,Green,1.5,1,1,5,7.75,117.75699129980057,117.52242129994556,11.266570100095123,0.26669409964233637,999,1,2,2025-02-10_08h51.42.242,MID1.0,60.07438398327463,
10,2,7,117.75704119959846,Blue,2.0,1,-1,5,4.25,126.02352519985288,125.77242129994556,8.266107600182295,0.23415669985115528,999,1,2,2025-02-10_08h51.42.242,MID1.0,60.07438398327463,
11,2,7,126.02356639970094,Green,2.0,1,1,6,2.25,132.29012769972906,132.02242129994556,6.266216499730945,0.2333496999926865,999,1,2,2025-02-10_08h51.42.242,MID1.0,60.07438398327463,
12,2,5,132.29016839992255,Blue,1.5,0,-1,6,1.75,137.5570580996573,137.27242129994556,5.2665436998941,,999,1,2,2025-02-10_08h51.42.242,MID1.0,60.07438398327463,
13,2,7,137.55711960000917,Green,1.5,1,1,7,1.75,142.8237022999674,142.52242129994556,5.2661017999053,0.2338527999818325,999,1,2,2025-02-10_08h51.42.242,MID1.0,60.07438398327463,
14,1,7,142.82374429982156,Blue,2.0,1,-1,7,2.25,149.0904531995766,148.77242129994556,6.266363700386137,0.23364969994872808,999,1,2,2025-02-10_08h51.42.242,MID1.0,60.07438398327463,
15,1,6,149.09049499966204,Green,1.5,1,1,8,1.75,154.37367689982057,154.02242129994556,5.282830900046974,0.21691560000181198,999,1,2,2025-02-10_08h51.42.242,MID1.0,60.07438398327463,
16,1,6,154.37371829990298,Green,3.5,1,1,9,7.75,167.65720779960975,167.27242129994556,13.283136299811304,0.21692080004140735,999,1,2,2025-02-10_08h51.42.242,MID1.0,60.07438398327463,
17,1,5,167.65724949957803,Green,3.0,0,-1,9,7.25,179.94073359994218,179.52242129994556,12.283133500255644,,999,1,2,2025-02-10_08h51.42.242,MID1.0,60.07438398327463,
18,1,6,179.94077519979328,Blue,1.5,1,-1,9,1.75,185.19118299987167,184.77242129994556,5.250063500367105,0.21673949994146824,999,1,2,2025-02-10_08h51.42.242,MID1.0,60.07438398327463,
19,1,6,185.19123169966042,Blue,1.5,0,-1,9,3.75,192.44126709969714,192.02242129994556,7.2496776999905705,,999,1,2,2025-02-10_08h51.42.242,MID1.0,60.07438398327463,
20,1,7,192.44131239969283,Green,1.5,1,1,10,5.75,201.70801189960912,201.27242129994556,9.266342799644917,0.23377060005441308,999,1,2,2025-02-10_08h51.42.242,MID1.0,60.07438398327463,
21,1,7,201.7080579996109,Blue,1.5,1,-1,10,1.75,206.99101879959926,206.52242129994556,5.282602899707854,0.2335194000042975,999,1,2,2025-02-10_08h51.42.242,MID1.0,60.07438398327463,
22,1,6,206.99106129957363,Green,1.5,0,-1,10,1.75,212.27439329959452,211.77242129994556,5.2829843000508845,,999,1,2,2025-02-10_08h51.42.242,MID1.0,60.07438398327463,
23,1,7,212.2744340999052,Green,2.5,1,1,11,2.75,219.54126349976286,219.02242129994556,7.266479699872434,0.23322150018066168,999,1,2,2025-02-10_08h51.42.242,MID1.0,60.07438398327463,
24,1,7,219.54133939975873,Blue,1.5,1,-1,11,1.75,224.80795249994844,224.27242129994556,5.266237499658018,0.23328609997406602,999,1,2,2025-02-10_08h51.42.242,MID1.0,60.07438398327463,
25,1,6,224.80799379991367,Blue,2.0,0,-1,11,2.25,231.07475619995967,230.52242129994556,6.266415600199252,,999,1,2,2025-02-10_08h51.42.242,MID1.0,60.07438398327463,
26,1,7,231.07479959959164,Green,3.0,0,-1,11,5.25,241.3252625996247,240.77242129994556,10.250114700291306,,999,1,2,2025-02-10_08h51.42.242,MID1.0,60.07438398327463,
27,1,8,241.32530779996887,Blue,1.5,1,-1,11,3.75,248.6081664999947,248.02242129994556,7.282506700139493,0.2504672002978623,999,1,2,2025-02-10_08h51.42.242,MID1.0,60.07438398327463,
28,1,8,248.6082072998397,Green,2.0,1,1,12,2.25,254.87506289966404,254.27242129994556,6.266535100061446,0.2501224996522069,999,1,2,2025-02-10_08h51.42.242,MID1.0,60.07438398327463,
,,,254.87514649983495,Green,2.0,1,1,13,6.25,,,,0.23348599998280406,,,,,,,
